delay,freq,condition,trials.thisRepN,trials.thisTrialN,trials.thisN,trials.thisIndex,polygon.started,polygon_2.started,key_resp.started,polygon.stopped,key_resp.keys,key_resp.rt,key_resp.duration,polygon_3.started,polygon_3.stopped,text.started,textbox.started,button.started,textbox.text,button.numClicks,button.timesOn,button.timesOff,participant,session,date,expName,psychopyVersion,frameRate,
0.7,1000,exp,0,0,0,5,7.439441399998032,8.431706499999564,8.431706499999564,8.448255100000097,space,10.39772670000093,None,19.577987500000745,19.880790299997898,19.880790299997898,19.880790299997898,19.880790299997898,250,1,[8.782794099999592],[8.78280580000137],619033,001,2023-11-08_19h30.02.320,Intentional binding,2023.1.3,60.10966407213285,
0.4,400,unexp,0,1,1,1,28.658027699999366,29.657694499997888,29.657694499997888,29.657694499997888,space,5.577339300001768,None,35.65578889999961,35.9555537999986,35.9555537999986,35.9555537999986,35.9555537999986,300 ,1,[5.179652200000419],[5.179656200001773],619033,001,2023-11-08_19h30.02.320,Intentional binding,2023.1.3,60.10966407213285,
0.1,1000,exp,0,2,2,6,41.1371278000006,42.13684859999921,42.13684859999921,42.13684859999921,space,3.2470716000025277,None,45.50237389999893,45.80216389999987,45.80216389999987,45.80216389999987,45.80216389999987,100,1,[3.5136421999995946],[3.513646499999595],619033,001,2023-11-08_19h30.02.320,Intentional binding,2023.1.3,60.10966407213285,
0.4,1000,exp,0,3,3,10,49.317726799999946,50.317425999997795,50.317425999997795,50.317425999997795,space,0.7838660999987042,None,51.533852900000056,51.83368580000024,51.83368580000024,51.83368580000024,51.83368580000024,200 ,1,[5.4153809000017645],[5.415387700002611],619033,001,2023-11-08_19h30.02.320,Intentional binding,2023.1.3,60.10966407213285,
0.1,1000,exp,0,4,4,9,57.24828329999946,58.248065199997654,58.248065199997654,58.248065199997654,space,2.4270590000014636,None,60.79731309999988,61.09707960000014,61.09707960000014,61.09707960000014,61.09707960000014,300,1,[2.714779300000373],[2.714782999999443],619033,001,2023-11-08_19h30.02.320,Intentional binding,2023.1.3,60.10966407213285,
0.4,1000,exp,0,5,5,4,63.812811100000545,64.81254600000102,64.81254600000102,64.81254600000102,space,0.6217385000018112,None,65.8622804000006,66.1619987999984,66.1619987999984,66.1619987999984,66.1619987999984,150 ,1,[6.0806439999978465],[6.080647700000554],619033,001,2023-11-08_19h30.02.320,Intentional binding,2023.1.3,60.10966407213285,
0.7,1000,exp,0,6,6,8,72.24325499999759,73.24312070000087,73.24312070000087,73.24312070000087,space,0.19736470000134432,None,74.15941069999826,74.45933399999922,74.45933399999922,74.45933399999922,74.45933399999922,350,1,[4.5647270000008575],[4.56473349999942],619033,001,2023-11-08_19h30.02.320,Intentional binding,2023.1.3,60.10966407213285,
0.4,1000,exp,0,7,7,7,79.02434139999968,80.02400900000066,80.02400900000066,80.02400900000066,space,1.4536457000031078,None,81.90659650000089,82.20658689999982,82.20658689999982,82.20658689999982,82.20658689999982,250,1,[5.064457299999049],[5.064460699999472],619033,001,2023-11-08_19h30.02.320,Intentional binding,2023.1.3,60.10966407213285,
0.1,400,unexp,0,8,8,0,87.27151779999986,88.27160939999885,88.27160939999885,88.27160939999885,space,0.8770364000010886,None,89.27107319999777,89.5707388999981,89.5707388999981,89.5707388999981,89.5707388999981,100,1,[2.8972895000006247],[2.8972943000007945],619033,001,2023-11-08_19h30.02.320,Intentional binding,2023.1.3,60.10966407213285,
0.1,1000,exp,0,9,9,3,92.46988659999988,93.46951059999992,93.46951059999992,93.46951059999992,space,2.2930765000019164,None,95.88542690000031,96.18512329999794,96.18512329999794,96.18512329999794,96.18512329999794,50,1,[5.564328199998272],[5.56433190000098],619033,001,2023-11-08_19h30.02.320,Intentional binding,2023.1.3,60.10966407213285,
0.7,400,unexp,0,10,10,2,101.75004830000034,102.74970359999861,102.74970359999861,102.74970359999861,space,0.8160051000013482,None,104.2825832999988,104.58234059999813,104.58234059999813,104.58234059999813,104.58234059999813,300 ,1,[3.6646806000026118],[3.664684600000328],619033,001,2023-11-08_19h30.02.320,Intentional binding,2023.1.3,60.10966407213285,
0.7,1000,exp,0,11,11,11,108.24789059999966,109.24752299999818,109.24752299999818,109.24752299999818,space,1.0712453000014648,None,111.04701679999926,111.3469683000003,111.3469683000003,111.3469683000003,111.3469683000003,400,1,[4.447331399998802],[4.4473351999986335],619033,001,2023-11-08_19h30.02.320,Intentional binding,2023.1.3,60.10966407213285,
0.1,1000,exp,1,0,12,6,115.79523459999837,116.79486189999807,116.79486189999807,116.79486189999807,space,0.16152660000079777,None,117.07818169999882,117.37819440000021,117.37819440000021,117.37819440000021,117.37819440000021,100,1,[2.531593299998349],[2.5315969999974186],619033,001,2023-11-08_19h30.02.320,Intentional binding,2023.1.3,60.10966407213285,
0.4,400,unexp,1,1,13,1,119.91055969999798,120.91024990000005,120.91024990000005,120.91024990000005,space,1.0807625999987067,None,122.40972129999864,122.70977649999986,122.70977649999986,122.70977649999986,122.70977649999986,200,1,[2.2650517000001855],[2.2650549999998475],619033,001,2023-11-08_19h30.02.320,Intentional binding,2023.1.3,60.10966407213285,
0.4,1000,exp,1,2,14,4,124.97551939999903,125.97514740000042,125.97514740000042,125.97514740000042,space,1.0343178000039188,None,127.4413667000008,127.74117189999743,127.74117189999743,127.74117189999743,127.74117189999743,200,1,[2.6649290999994264],[2.6649345999976504],619033,001,2023-11-08_19h30.02.320,Intentional binding,2023.1.3,60.10966407213285,
0.1,400,unexp,1,3,15,0,130.40696219999882,131.40674500000023,131.40674500000023,131.40674500000023,space,0.8515557000027911,None,132.38971719999972,132.68960329999754,132.68960329999754,132.68960329999754,132.68960329999754,100,1,[2.064434199997777],[2.0644400999990467],619033,001,2023-11-08_19h30.02.320,Intentional binding,2023.1.3,60.10966407213285,
0.1,1000,exp,1,4,16,9,134.75555320000058,135.75523859999885,135.75523859999885,135.75523859999885,space,0.8213013000022329,None,136.70506679999744,137.00502039999992,137.00502039999992,137.00502039999992,137.00502039999992,50,1,[3.664600699998118],[3.6646049000009953],619033,001,2023-11-08_19h30.02.320,Intentional binding,2023.1.3,60.10966407213285,
0.4,1000,exp,1,5,17,7,140.67002069999944,141.6698499999984,141.6698499999984,141.6698499999984,space,2.168470700002217,None,144.26896660000057,144.5687872999988,144.5687872999988,144.5687872999988,144.5687872999988,300,1,[1.7652525999983482],[1.765256300001056],619033,001,2023-11-08_19h30.02.320,Intentional binding,2023.1.3,60.10966407213285,
0.7,400,unexp,1,6,18,2,146.33486509999784,147.334745199998,147.334745199998,147.334745199998,space,0.6216951000023982,None,148.68417439999757,148.98407079999743,148.98407079999743,148.98407079999743,148.98407079999743,500,1,[3.314285699998436],[3.3142913000010594],619033,001,2023-11-08_19h30.02.320,Intentional binding,2023.1.3,60.10966407213285,
0.7,1000,exp,1,7,19,5,152.29958279999846,153.29926429999978,153.29926429999978,153.29926429999978,space,1.8176190000012866,None,155.84845649999988,156.14833490000092,156.14833490000092,156.14833490000092,156.14833490000092,600,1,[2.148614000001544],[2.1486179000021366],619033,001,2023-11-08_19h30.02.320,Intentional binding,2023.1.3,60.10966407213285,
0.7,1000,exp,1,8,20,11,158.29746629999863,159.29738209999778,159.29738209999778,159.29738209999778,space,0.807714999999007,None,160.83012959999905,161.1300474999989,161.1300474999989,161.1300474999989,161.1300474999989,550,1,[4.697133500001655],[4.697138700001233],619033,001,2023-11-08_19h30.02.320,Intentional binding,2023.1.3,60.10966407213285,
0.1,1000,exp,1,9,21,3,165.82823789999748,166.8281070999983,166.8281070999983,166.8281070999983,space,0.9371940000019094,None,167.89441219999935,168.19432640000014,168.19432640000014,168.19432640000014,168.19432640000014,100,1,[2.8309024999980466],[2.83090810000067],619033,001,2023-11-08_19h30.02.320,Intentional binding,2023.1.3,60.10966407213285,
0.4,1000,exp,1,10,22,10,171.02667909999946,172.02630990000034,172.02630990000034,172.02630990000034,space,1.4002863999994588,None,173.85892400000012,174.1587894999975,174.1587894999975,174.1587894999975,174.1587894999975,400,1,[3.1638085000013234],[3.163811500002339],619033,001,2023-11-08_19h30.02.320,Intentional binding,2023.1.3,60.10966407213285,
0.7,1000,exp,1,11,23,8,177.3243728999987,178.3242738000008,178.3242738000008,178.3242738000008,space,0.6842326000005414,None,179.7403587000008,180.04017039999962,180.04017039999962,180.04017039999962,180.04017039999962,500,1,[2.381980600002862],[2.381985200001509],619033,001,2023-11-08_19h30.02.320,Intentional binding,2023.1.3,60.10966407213285,
0.7,1000,exp,2,0,24,11,182.4226794999995,183.42259759999797,183.42259759999797,183.42259759999797,space,1.0396275000020978,None,185.18863520000014,185.48842180000065,185.48842180000065,185.48842180000065,185.48842180000065,400,1,[2.4981188000019756],[2.498122400000284],619033,001,2023-11-08_19h30.02.320,Intentional binding,2023.1.3,60.10966407213285,
0.1,1000,exp,2,1,25,9,187.98746100000062,188.98717150000084,188.98717150000084,188.98717150000084,space,0.8143092999998771,None,189.92038129999855,190.22021329999916,190.22021329999916,190.22021329999916,190.22021329999916,50,1,[3.0648318999992625],[3.0648378999976558],619033,001,2023-11-08_19h30.02.320,Intentional binding,2023.1.3,60.10966407213285,
0.4,1000,exp,2,2,26,4,193.28583639999852,194.28534740000032,194.28534740000032,194.28534740000032,space,0.740902500001539,None,195.4516741999978,195.7514310000006,195.7514310000006,195.7514310000006,195.7514310000006,200,1,[1.8989596999999776],[1.8989626000002318],619033,001,2023-11-08_19h30.02.320,Intentional binding,2023.1.3,60.10966407213285,
0.4,1000,exp,2,3,27,7,197.6508877999986,198.65071949999765,198.65071949999765,198.65071949999765,space,1.236292699999467,None,200.31685599999764,200.6165594999984,200.6165594999984,200.6165594999984,200.6165594999984,300,1,[2.0152833000029204],[2.015287600002921],619033,001,2023-11-08_19h30.02.320,Intentional binding,2023.1.3,60.10966407213285,
0.7,1000,exp,2,4,28,8,202.63249939999878,203.63228510000044,203.63228510000044,203.63228510000044,space,1.334903700000723,None,205.69824769999832,205.9980121999979,205.9980121999979,205.9980121999979,205.9980121999979,500,1,[2.665482399999746],[2.665487199999916],619033,001,2023-11-08_19h30.02.320,Intentional binding,2023.1.3,60.10966407213285,
0.4,1000,exp,2,5,29,10,208.66391229999863,209.66359789999842,209.66359789999842,209.66359789999842,space,0.7129864000016823,None,210.7964624999986,211.09642650000023,211.09642650000023,211.09642650000023,211.09642650000023,250,1,[2.40020530000038],[2.400211299998773],619033,001,2023-11-08_19h30.02.320,Intentional binding,2023.1.3,60.10966407213285,
0.7,400,unexp,2,6,30,2,213.49546999999802,214.4952228000002,214.4952228000002,214.4952228000002,space,1.002361099999689,None,216.22804990000077,216.52783319999799,216.52783319999799,216.52783319999799,216.52783319999799,400,1,[2.265463499999896],[2.265469199999643],619033,001,2023-11-08_19h30.02.320,Intentional binding,2023.1.3,60.10966407213285,
0.1,400,unexp,2,7,31,0,218.79369120000047,219.7934252999985,219.7934252999985,219.7934252999985,space,0.7775406000000658,None,220.69319189999806,220.993086399998,220.993086399998,220.993086399998,220.993086399998,100,1,[3.113636999998562],[3.113640299998224],619033,001,2023-11-08_19h30.02.320,Intentional binding,2023.1.3,60.10966407213285,
0.1,1000,exp,2,8,32,3,224.1085177999994,225.10830630000055,225.10830630000055,225.10830630000055,space,0.826305600003252,None,226.05815240000084,226.3578983999978,226.3578983999978,226.3578983999978,226.3578983999978,50,1,[2.8486528000030376],[2.848660800002108],619033,001,2023-11-08_19h30.02.320,Intentional binding,2023.1.3,60.10966407213285,
0.4,400,unexp,2,9,33,1,229.20695870000054,230.20664209999813,230.20664209999813,230.20664209999813,space,1.1335314000025392,None,231.77281949999815,232.07270489999792,232.07270489999792,232.07270489999792,232.07270489999792,150,1,[3.6480307999991055],[3.6480378000014753],619033,001,2023-11-08_19h30.02.320,Intentional binding,2023.1.3,60.10966407213285,
0.1,1000,exp,2,10,34,6,235.7214313000004,236.72119979999843,236.72119979999843,236.72119979999843,space,1.075385100000858,None,237.92074130000037,238.22053159999996,238.22053159999996,238.22053159999996,238.22053159999996,100,1,[2.664081900002202],[2.6640869000002567],619033,001,2023-11-08_19h30.02.320,Intentional binding,2023.1.3,60.10966407213285,
0.7,1000,exp,2,11,35,5,240.8862814999993,241.88580250000086,241.88580250000086,241.88580250000086,space,0.7868584000025294,None,243.40213129999756,243.70210270000098,243.70210270000098,243.70210270000098,243.70210270000098,450,1,[2.814141299997573],[2.814146900000196],619033,001,2023-11-08_19h30.02.320,Intentional binding,2023.1.3,60.10966407213285,
0.4,400,unexp,3,0,36,1,246.51777709999806,247.51745789999768,247.51745789999768,247.51745789999768,space,0.9349140000012994,None,248.88357189999806,249.18335189999925,249.18335189999925,249.18335189999925,249.18335189999925,250,1,[2.2814661000011256],[2.281469300000026],619033,001,2023-11-08_19h30.02.320,Intentional binding,2023.1.3,60.10966407213285,
0.1,400,unexp,3,1,37,0,251.4659290999989,252.46569889999955,252.46569889999955,252.46569889999955,space,0.6147600000040256,None,253.19892120000077,253.49874210000053,253.49874210000053,253.49874210000053,253.49874210000053,50,1,[3.0979994000008446],[3.098007000000507],619033,001,2023-11-08_19h30.02.320,Intentional binding,2023.1.3,60.10966407213285,
0.4,1000,exp,3,2,38,4,256.5975677999995,257.597377099999,257.597377099999,257.597377099999,space,0.6210140000002866,None,258.6303904999986,258.93019149999964,258.93019149999964,258.93019149999964,258.93019149999964,100,1,[1.9988360999996075],[1.9988430999983393],619033,001,2023-11-08_19h30.02.320,Intentional binding,2023.1.3,60.10966407213285,
0.1,1000,exp,3,3,39,9,260.9294160999998,261.92918519999876,261.92918519999876,261.92918519999876,space,1.0417704999999842,None,263.0956191000005,263.3954913999987,263.3954913999987,263.3954913999987,263.3954913999987,100,1,[2.432173100001819],[2.432178600000043],619033,001,2023-11-08_19h30.02.320,Intentional binding,2023.1.3,60.10966407213285,
0.1,1000,exp,3,4,40,3,265.8278336000003,266.8274590000001,266.8274590000001,266.8274590000001,space,1.7898482000018703,None,268.74365749999924,269.04341209999984,269.04341209999984,269.04341209999984,269.04341209999984,50,1,[2.7313370999982],[2.731340899998031],619033,001,2023-11-08_19h30.02.320,Intentional binding,2023.1.3,60.10966407213285,
0.4,1000,exp,3,5,41,7,271.77577649999876,272.77545380000083,272.77545380000083,272.77545380000083,space,0.861603200002719,None,274.0584423,274.35837529999844,274.35837529999844,274.35837529999844,274.35837529999844,250,1,[2.565968299997621],[2.5659744999975374],619033,001,2023-11-08_19h30.02.320,Intentional binding,2023.1.3,60.10966407213285,
0.7,400,unexp,3,6,42,2,276.9241822999975,277.9237801999989,277.9237801999989,277.9237801999989,space,1.2121894000010798,None,279.8564770999983,280.1563052999991,280.1563052999991,280.1563052999991,280.1563052999991,350,1,[2.2156793999965885],[2.2156862999981968],619033,001,2023-11-08_19h30.02.320,Intentional binding,2023.1.3,60.10966407213285,
0.4,1000,exp,3,7,43,10,282.3721489999989,283.3718544999974,283.3718544999974,283.3718544999974,space,0.7113453000019945,None,284.5050010999985,284.8048094000005,284.8048094000005,284.8048094000005,284.8048094000005,400,1,[1.9650849000026938],[1.9650880000008328],619033,001,2023-11-08_19h30.02.320,Intentional binding,2023.1.3,60.10966407213285,
0.7,1000,exp,3,8,44,11,286.77065429999857,287.7703341999986,287.7703341999986,287.7703341999986,space,0.7480263000034029,None,289.2366268000005,289.5364751999987,289.5364751999987,289.5364751999987,289.5364751999987,500,1,[2.0313124999993306],[2.031315700001869],619033,001,2023-11-08_19h30.02.320,Intentional binding,2023.1.3,60.10966407213285,
0.7,1000,exp,3,9,45,8,291.5689631999994,292.568938299999,292.568938299999,292.568938299999,space,2.1347151000045415,None,295.4345691999988,295.7344568999979,295.7344568999979,295.7344568999979,295.7344568999979,600,1,[1.864343799999915],[1.8643494000025385],619033,001,2023-11-08_19h30.02.320,Intentional binding,2023.1.3,60.10966407213285,
0.1,1000,exp,3,10,46,6,297.6005213999997,298.60008689999813,298.60008689999813,298.60008689999813,space,0.3674505999988469,None,299.0999695999999,299.3999507999979,299.3999507999979,299.3999507999979,299.3999507999979,100,1,[3.315450599999167],[3.315454299998237],619033,001,2023-11-08_19h30.02.320,Intentional binding,2023.1.3,60.10966407213285,
0.7,1000,exp,3,11,47,5,302.7151718999994,303.71502820000023,303.71502820000023,303.71502820000023,space,1.0340819000011834,None,305.48110950000046,305.7809763999976,305.7809763999976,305.7809763999976,305.7809763999976,450,1,[2.3140308000001824],[2.3140366000006907],619033,001,2023-11-08_19h30.02.320,Intentional binding,2023.1.3,60.10966407213285,
0.7,1000,exp,4,0,48,5,308.096803299999,309.09660040000017,309.09660040000017,309.09660040000017,space,0.7667424999999639,None,310.57947609999974,310.8792833999978,310.8792833999978,310.8792833999978,310.8792833999978,600,1,[3.514605300002586],[3.5146112000002177],619033,001,2023-11-08_19h30.02.320,Intentional binding,2023.1.3,60.10966407213285,
0.4,400,unexp,4,1,49,1,314.39469819999795,315.39450020000004,315.39450020000004,315.39450020000004,space,2.4545323999991524,None,318.2768741,318.57670679999865,318.57670679999865,318.57670679999865,318.57670679999865,250,1,[3.1150675999997475],[3.11507039999924],619033,001,2023-11-08_19h30.02.320,Intentional binding,2023.1.3,60.10966407213285,
0.1,1000,exp,4,2,50,6,321.69226379999964,322.691834199999,322.691834199999,322.691834199999,space,0.5475364000012632,None,323.3585072999995,323.6582712999989,323.6582712999989,323.6582712999989,323.6582712999989,150,1,[3.547619600001781],[3.5476224000012735],619033,001,2023-11-08_19h30.02.320,Intentional binding,2023.1.3,60.10966407213285,
0.7,400,unexp,4,3,51,2,327.2068576999991,328.2068830999997,328.2068830999997,328.2068830999997,space,0.7592609000021184,None,329.6896177999988,329.9895089999991,329.9895089999991,329.9895089999991,329.9895089999991,350,1,[2.6654428000001644],[2.665446499999234],619033,001,2023-11-08_19h30.02.320,Intentional binding,2023.1.3,60.10966407213285,
0.1,1000,exp,4,4,52,3,332.6551225000003,333.6549097999996,333.6549097999996,333.6549097999996,space,2.639372199999343,None,336.4208147999998,336.720492299999,336.720492299999,336.720492299999,336.720492299999,50,1,[2.314630100001523],[2.3146333000004233],619033,001,2023-11-08_19h30.02.320,Intentional binding,2023.1.3,60.10966407213285,
0.1,400,unexp,4,5,53,0,339.03641199999765,340.0362079999977,340.0362079999977,340.0362079999977,space,3.899576799998613,None,344.06817890000093,344.36790180000025,344.36790180000025,344.36790180000025,344.36790180000025,50,1,[2.09896690000096],[2.0989736000010453],619033,001,2023-11-08_19h30.02.320,Intentional binding,2023.1.3,60.10966407213285,
0.4,1000,exp,4,6,54,4,346.4671739000005,347.467093700001,347.467093700001,347.467093700001,space,0.9162562999990769,None,348.79981979999866,349.09962860000087,349.09962860000087,349.09962860000087,349.09962860000087,50,1,[3.131200499999977],[3.1312074000015855],619033,001,2023-11-08_19h30.02.320,Intentional binding,2023.1.3,60.10966407213285,
0.7,1000,exp,4,7,55,8,352.23193719999836,353.23165829999925,353.23165829999925,353.23165829999925,space,0.557527900000423,None,354.51465409999946,354.81438139999955,354.81438139999955,354.81438139999955,354.81438139999955,300,1,[3.5301050000016403],[3.5301084000020637],619033,001,2023-11-08_19h30.02.320,Intentional binding,2023.1.3,60.10966407213285,
0.7,1000,exp,4,8,56,11,358.3463794999989,359.3461752000003,359.3461752000003,359.3461752000003,space,2.362960500002373,None,362.428721100001,362.72841829999743,362.72841829999743,362.72841829999743,362.72841829999743,400,1,[2.0316867000001366],[2.0316908999993757],619033,001,2023-11-08_19h30.02.320,Intentional binding,2023.1.3,60.10966407213285,
0.1,1000,exp,4,9,57,9,364.76108659999954,365.76075130000027,365.76075130000027,365.76075130000027,space,1.9830000000038126,None,367.8601256000002,368.159872799999,368.159872799999,368.159872799999,368.159872799999,50,1,[2.682447900002444],[2.682453600002191],619033,001,2023-11-08_19h30.02.320,Intentional binding,2023.1.3,60.10966407213285,
0.4,1000,exp,4,10,58,10,370.8423662999994,371.8419909000004,371.8419909000004,371.8419909000004,space,1.9058514000025752,None,374.17457250000007,374.4743533000001,374.4743533000001,374.4743533000001,374.4743533000001,50,1,[3.098236599998927],[3.0982422000015504],619033,001,2023-11-08_19h30.02.320,Intentional binding,2023.1.3,60.10966407213285,
0.4,1000,exp,4,11,59,7,377.5734811000002,378.5731261000001,378.5731261000001,378.5731261000001,space,0.8702180000000226,None,379.87270010000066,380.1725363999976,380.1725363999976,380.1725363999976,380.1725363999976,50,1,[2.5317173000003095],[2.53172160000031],619033,001,2023-11-08_19h30.02.320,Intentional binding,2023.1.3,60.10966407213285,
0.7,1000,exp,5,0,60,5,382.7049320999977,383.70470919999934,383.70470919999934,383.70470919999934,space,1.028141599999799,None,385.45420119999835,385.75392909999937,385.75392909999937,385.75392909999937,385.75392909999937,100,1,[3.231654700000945],[3.2316609999979846],619033,001,2023-11-08_19h30.02.320,Intentional binding,2023.1.3,60.10966407213285,
0.1,1000,exp,5,1,61,9,388.9860516999979,389.9857728999996,389.9857728999996,389.9857728999996,space,0.4054753999989771,None,390.5190786999992,390.81896389999747,390.81896389999747,390.81896389999747,390.81896389999747,50,1,[3.6648973999981536],[3.6649030999979004],619033,001,2023-11-08_19h30.02.320,Intentional binding,2023.1.3,60.10966407213285,
0.1,1000,exp,5,2,62,6,394.4842255000003,395.4841176000009,395.4841176000009,395.4841176000009,space,0.9495064000038838,None,396.5502434000009,396.85019779999857,396.85019779999857,396.85019779999857,396.85019779999857,100,1,[2.7982669999983045],[2.7982726999980514],619033,001,2023-11-08_19h30.02.320,Intentional binding,2023.1.3,60.10966407213285,
0.7,1000,exp,5,3,63,11,399.6492044999977,400.6489499999989,400.6489499999989,400.6489499999989,space,0.8960060000026715,None,402.26520789999995,402.56495200000063,402.56495200000063,402.56495200000063,402.56495200000063,200,1,[2.1320713000022806],[2.1320777000000817],619033,001,2023-11-08_19h30.02.320,Intentional binding,2023.1.3,60.10966407213285,
0.1,400,unexp,5,4,64,0,404.6974764000006,405.6973856000004,405.6973856000004,405.6973856000004,space,1.3330437000004167,None,407.1467546999993,407.446617900001,407.446617900001,407.446617900001,407.446617900001,"50
",1,[3.0982231000016327],[3.098228900002141],619033,001,2023-11-08_19h30.02.320,Intentional binding,2023.1.3,60.10966407213285,
0.7,400,unexp,5,5,65,2,410.54558850000103,411.5452628999992,411.5452628999992,411.5452628999992,space,1.3974598000022525,None,413.66121199999907,413.961175299999,413.961175299999,413.961175299999,413.961175299999,400,1,[2.4812231000032625],[2.481228900000133],619033,001,2023-11-08_19h30.02.320,Intentional binding,2023.1.3,60.10966407213285,
0.4,1000,exp,5,6,66,4,416.4435522999993,417.4432769999985,417.4432769999985,417.4432769999985,space,0.08111250000001746,None,417.9430876000006,418.24301039999773,418.24301039999773,418.24301039999773,418.24301039999773,"350
",1,[3.6647683000010147],[3.6647731000011845],619033,001,2023-11-08_19h30.02.320,Intentional binding,2023.1.3,60.10966407213285,
0.4,1000,exp,5,7,67,10,421.90834220000033,422.90794169999936,422.90794169999936,422.90794169999936,space,0.6939898000018729,None,424.0244335999996,424.3242016999975,424.3242016999975,424.3242016999975,424.3242016999975,300,1,[2.081590400001005],[2.081593700000667],619033,001,2023-11-08_19h30.02.320,Intentional binding,2023.1.3,60.10966407213285,
0.1,1000,exp,5,8,68,3,426.4068088999993,427.4065363000009,427.4065363000009,427.4065363000009,space,0.8604799000022467,None,428.38947149999876,428.6893287999992,428.6893287999992,428.6893287999992,428.6893287999992,100,1,[3.0487561999980244],[3.0487618999977713],619033,001,2023-11-08_19h30.02.320,Intentional binding,2023.1.3,60.10966407213285,
0.4,1000,exp,5,9,69,7,431.738306700001,432.7380555999989,432.7380555999989,432.7380555999989,space,3.0600290000002133,None,436.22034899999926,436.5201539000009,436.5201539000009,436.5201539000009,436.5201539000009,100,1,[2.8651353000022937],[2.865141100002802],619033,001,2023-11-08_19h30.02.320,Intentional binding,2023.1.3,60.10966407213285,
0.4,400,unexp,5,10,70,1,439.3858103999992,440.38536589999785,440.38536589999785,440.38536589999785,space,0.6067593000007037,None,441.41852310000104,441.718436799998,441.718436799998,441.718436799998,441.718436799998,200,1,[1.7657896999990044],[1.765793599999597],619033,001,2023-11-08_19h30.02.320,Intentional binding,2023.1.3,60.10966407213285,
0.7,1000,exp,5,11,71,8,443.4842896000009,444.48404279999886,444.48404279999886,444.48404279999886,space,2.3350211000033596,None,447.5496098000003,447.84959589999926,447.84959589999926,447.84959589999926,447.84959589999926,300,1,[1.9829857999975502],[1.9829917999995814],619033,001,2023-11-08_19h30.02.320,Intentional binding,2023.1.3,60.10966407213285,
0.4,1000,exp,6,0,72,4,449.8322509999998,450.8319472000003,450.8319472000003,450.8319472000003,space,1.2631825000025856,None,452.5147380999988,452.8145904999983,452.8145904999983,452.8145904999983,452.8145904999983,350,1,[2.132059499999741],[2.132064499997796],619033,001,2023-11-08_19h30.02.320,Intentional binding,2023.1.3,60.10966407213285,
0.4,1000,exp,6,1,73,7,454.94714079999903,455.9468099000005,455.9468099000005,455.9468099000005,space,0.05179370000041672,None,456.4299714999979,456.72991750000074,456.72991750000074,456.72991750000074,456.72991750000074,200 ,1,[2.4814653000030376],[2.481470900002023],619033,001,2023-11-08_19h30.02.320,Intentional binding,2023.1.3,60.10966407213285,
0.7,1000,exp,6,2,74,11,459.21230260000084,460.2121029000009,460.2121029000009,460.2121029000009,space,1.3569997000013245,None,462.2947831999991,462.59460089999993,462.59460089999993,462.59460089999993,462.59460089999993,400,1,[3.5312962000025436],[3.531303300002037],619033,001,2023-11-08_19h30.02.320,Intentional binding,2023.1.3,60.10966407213285,
0.1,400,unexp,6,3,75,0,466.126670499998,467.1263966999977,467.1263966999977,467.1263966999977,space,0.7343748999992386,None,467.99298400000043,468.2927409999975,468.2927409999975,468.2927409999975,468.2927409999975,50,1,[2.548556199999439],[2.5485614000026544],619033,001,2023-11-08_19h30.02.320,Intentional binding,2023.1.3,60.10966407213285,
0.4,1000,exp,6,4,76,10,470.841763299999,471.8414386999975,471.8414386999975,471.8414386999975,space,0.502794800002448,None,472.77446340000097,473.07434959999955,473.07434959999955,473.07434959999955,473.07434959999955,250,1,[4.180221700000402],[4.180225399999472],619033,001,2023-11-08_19h30.02.320,Intentional binding,2023.1.3,60.10966407213285,
0.7,1000,exp,6,5,77,8,477.25637300000017,478.25601649999953,478.25601649999953,478.25601649999953,space,1.422699200000352,None,480.4053705999977,480.70524680000017,480.70524680000017,480.70524680000017,480.70524680000017,350,1,[2.880666500001098],[2.880669400001352],619033,001,2023-11-08_19h30.02.320,Intentional binding,2023.1.3,60.10966407213285,
0.1,1000,exp,6,6,78,3,483.58747909999875,484.58722710000075,484.58722710000075,484.58722710000075,space,2.272166599999764,None,486.98640969999906,487.2862936999991,487.2862936999991,487.2862936999991,487.2862936999991,50,1,[3.4148126000000047],[3.4148192000029667],619033,001,2023-11-08_19h30.02.320,Intentional binding,2023.1.3,60.10966407213285,
0.1,1000,exp,6,7,79,6,490.7017390000001,491.7014812999987,491.7014812999987,491.7014812999987,space,1.3581623999998556,None,493.1844515999983,493.4841383999992,493.4841383999992,493.4841383999992,493.4841383999992,50,1,[2.348139000001538],[2.348143200000777],619033,001,2023-11-08_19h30.02.320,Intentional binding,2023.1.3,60.10966407213285,
0.7,1000,exp,6,8,80,5,495.833275099998,496.83297010000024,496.83297010000024,496.83297010000024,space,0.4745428999995056,None,498.03273139999874,498.3326452000001,498.3326452000001,498.3326452000001,498.3326452000001,250,1,[2.4153831000003265],[2.4153866000015114],619033,001,2023-11-08_19h30.02.320,Intentional binding,2023.1.3,60.10966407213285,
0.4,400,unexp,6,9,81,1,500.7483652999981,501.7481265999995,501.7481265999995,501.7481265999995,space,0.48183960000096704,None,502.6477691,502.94765929999994,502.94765929999994,502.94765929999994,502.94765929999994,300,1,[2.881336399997963],[2.8813417999990634],619033,001,2023-11-08_19h30.02.320,Intentional binding,2023.1.3,60.10966407213285,
0.1,1000,exp,6,10,82,9,505.829984699998,506.8296722999985,506.8296722999985,506.8296722999985,space,1.848315300001559,None,508.7957220999997,509.09554809999827,509.09554809999827,509.09554809999827,509.09554809999827,150,1,[2.449092999999266],[2.449096299998928],619033,001,2023-11-08_19h30.02.320,Intentional binding,2023.1.3,60.10966407213285,
0.7,400,unexp,6,11,83,2,511.54469889999746,512.5445054999982,512.5445054999982,512.5445054999982,space,0.8753370000013092,None,514.1439272999996,514.4437459000001,514.4437459000001,514.4437459000001,514.4437459000001,250,1,[2.2304146999995282],[2.2304205000000366],619033,001,2023-11-08_19h30.02.320,Intentional binding,2023.1.3,60.10966407213285,
0.4,1000,exp,7,0,84,4,516.6763296999998,517.675987300001,517.675987300001,517.675987300001,space,0.8397221000013815,None,518.9422978000002,519.2420930000008,519.2420930000008,519.2420930000008,519.2420930000008,200,1,[2.882045999998809],[2.8820511999983864],619033,001,2023-11-08_19h30.02.320,Intentional binding,2023.1.3,60.10966407213285,
0.1,1000,exp,7,1,85,9,522.1244745000004,523.1241751999987,523.1241751999987,523.1241751999987,space,0.7256199000003107,None,523.9740041999976,524.2737444999984,524.2737444999984,524.2737444999984,524.2737444999984,100,1,[2.6656713000011223],[2.6656771000016306],619033,001,2023-11-08_19h30.02.320,Intentional binding,2023.1.3,60.10966407213285,
0.1,1000,exp,7,2,86,3,526.9394371999988,527.9392737999988,527.9392737999988,527.9392737999988,space,0.499998900002538,None,528.555718399999,528.855501099999,528.855501099999,528.855501099999,528.855501099999,100,1,[2.015323100000387],[2.015329300000303],619033,001,2023-11-08_19h30.02.320,Intentional binding,2023.1.3,60.10966407213285,
0.4,400,unexp,7,3,87,1,530.8715167999981,531.8712369999994,531.8712369999994,531.8712369999994,space,0.5010537000016484,None,532.804236,533.1040044000001,533.1040044000001,533.1040044000001,533.1040044000001,150,1,[2.398201300002256],[2.3982089000019187],619033,001,2023-11-08_19h30.02.320,Intentional binding,2023.1.3,60.10966407213285,
0.1,400,unexp,7,4,88,0,535.5033545999977,536.5029480999983,536.5029480999983,536.5029480999983,space,1.0607033999986015,None,537.6860330999989,537.9857974999977,537.9857974999977,537.9857974999977,537.9857974999977,100,1,[2.348647200000414],[2.348652699998638],619033,001,2023-11-08_19h30.02.320,Intentional binding,2023.1.3,60.10966407213285,
0.7,400,unexp,7,5,89,2,540.334950299999,541.3346622999998,541.3346622999998,541.3346622999998,space,3.5715479999998934,None,545.6331919000004,545.9330854,545.9330854,545.9330854,545.9330854,300,1,[1.7475517999992007],[1.7475578999983554],619033,001,2023-11-08_19h30.02.320,Intentional binding,2023.1.3,60.10966407213285,
0.7,1000,exp,7,6,90,11,547.6825131000005,548.6821156000005,548.6821156000005,548.6821156000005,space,2.16248590000032,None,551.5646971999995,551.8644786999976,551.8644786999976,551.8644786999976,551.8644786999976,400,1,[1.8311706999993476],[1.8311763999990944],619033,001,2023-11-08_19h30.02.320,Intentional binding,2023.1.3,60.10966407213285,
0.7,1000,exp,7,7,91,8,553.6970072000004,554.6968688999987,554.6968688999987,554.6968688999987,space,0.5875159999995958,None,556.0132295000003,556.3128593000001,556.3128593000001,556.3128593000001,556.3128593000001,500,1,[1.9307838000022457],[1.9307891999997082],619033,001,2023-11-08_19h30.02.320,Intentional binding,2023.1.3,60.10966407213285,
0.7,1000,exp,7,8,92,5,558.2454407999976,559.2452641999989,559.2452641999989,559.2452641999989,space,2.1181509000016376,None,562.0943775999986,562.3941467999975,562.3941467999975,562.3941467999975,562.3941467999975,300,1,[2.181582099998195],[2.181587600000057],619033,001,2023-11-08_19h30.02.320,Intentional binding,2023.1.3,60.10966407213285,
0.4,1000,exp,7,9,93,10,564.5768286999992,565.5764137999977,565.5764137999977,565.5764137999977,space,2.170600800000102,None,568.1757083999983,568.4754694000003,568.4754694000003,568.4754694000003,568.4754694000003,250,1,[2.797856800003501],[2.797861200000625],619033,001,2023-11-08_19h30.02.320,Intentional binding,2023.1.3,60.10966407213285,
0.1,1000,exp,7,10,94,6,571.2744023999985,572.2742231999982,572.2742231999982,572.2742231999982,space,1.8586830000022019,None,574.256921799999,574.556706299998,574.556706299998,574.556706299998,574.556706299998,150,1,[3.0305021999993187],[3.030506700000842],619033,001,2023-11-08_19h30.02.320,Intentional binding,2023.1.3,60.10966407213285,
0.4,1000,exp,7,11,95,7,577.5888568000009,578.5887051999998,578.5887051999998,578.5887051999998,space,0.9119195000021136,None,579.9215304999998,580.2215845999999,580.2215845999999,580.2215845999999,580.2215845999999,200,1,[2.898756199996569],[2.898761899999954],619033,001,2023-11-08_19h30.02.320,Intentional binding,2023.1.3,60.10966407213285,
0.1,400,unexp,8,0,96,0,583.1206003999978,584.1202269999994,584.1202269999994,584.1202269999994,space,1.464372900001763,None,585.7029841000003,586.0028545999994,586.0028545999994,586.0028545999994,586.0028545999994,100 ,1,[3.4143887999998697],[3.4143929999991087],619033,001,2023-11-08_19h30.02.320,Intentional binding,2023.1.3,60.10966407213285,
0.1,1000,exp,8,1,97,9,589.4182897999999,590.4180989999986,590.4180989999986,590.4180989999986,space,0.968180100000609,None,591.517622899999,591.8174627999979,591.8174627999979,591.8174627999979,591.8174627999979,100,1,[2.8482280999996874],[2.848233300002903],619033,001,2023-11-08_19h30.02.320,Intentional binding,2023.1.3,60.10966407213285,
0.4,400,unexp,8,2,98,1,594.6665355000005,595.6663112999995,595.6663112999995,595.6663112999995,space,2.877236799999082,None,598.9652748000008,599.2650538999987,599.2650538999987,599.2650538999987,599.2650538999987,200,1,[2.0317426999972668],[2.031746900000144],619033,001,2023-11-08_19h30.02.320,Intentional binding,2023.1.3,60.10966407213285,
0.4,1000,exp,8,3,99,7,601.2977111,602.2973457000007,602.2973457000007,602.2973457000007,space,1.229514200003905,None,603.9468815,604.2467006999977,604.2467006999977,604.2467006999977,604.2467006999977,300 ,1,[2.7983748000006017],[2.798378800001956],619033,001,2023-11-08_19h30.02.320,Intentional binding,2023.1.3,60.10966407213285,
0.7,1000,exp,8,4,100,11,607.045823299999,608.0455634999998,608.0455634999998,608.0455634999998,space,1.0825817000004463,None,609.8449182999975,610.1447659999976,610.1447659999976,610.1447659999976,610.1447659999976,300,1,[1.9307695999996213],[1.9307727000013983],619033,001,2023-11-08_19h30.02.320,Intentional binding,2023.1.3,60.10966407213285,
0.7,1000,exp,8,5,101,8,612.0775098999984,613.0769772999993,613.0769772999993,613.0769772999993,space,1.0902729000008549,None,614.8930059999984,615.1930298999978,615.1930298999978,615.1930298999978,615.1930298999978,350,1,[2.3654480000004696],[2.3654540999996243],619033,001,2023-11-08_19h30.02.320,Intentional binding,2023.1.3,60.10966407213285,
0.4,1000,exp,8,6,102,4,617.558853999999,618.5585527000003,618.5585527000003,618.5585527000003,space,0.552019200000359,None,619.5416612000008,619.8414228000001,619.8414228000001,619.8414228000001,619.8414228000001,250,1,[2.364075400000729],[2.364079299997684],619033,001,2023-11-08_19h30.02.320,Intentional binding,2023.1.3,60.10966407213285,
0.7,400,unexp,8,7,103,2,622.2073125999996,623.2069501999977,623.2069501999977,623.2069501999977,space,0.4122414000048593,None,624.339912200001,624.6398014999977,624.6398014999977,624.6398014999977,624.6398014999977,250,1,[2.215202600000339],[2.2152069000003394],619033,001,2023-11-08_19h30.02.320,Intentional binding,2023.1.3,60.10966407213285,
0.4,1000,exp,8,8,104,10,626.8556190999989,627.8553732,627.8553732,627.8553732,space,0.7145165000001725,None,628.9884462000009,629.2883036999992,629.2883036999992,629.2883036999992,629.2883036999992,200,1,[1.8989408000015828],[1.898946799999976],619033,001,2023-11-08_19h30.02.320,Intentional binding,2023.1.3,60.10966407213285,
0.1,1000,exp,8,9,105,3,631.1875309999996,632.187374000001,632.187374000001,632.187374000001,space,1.0557484999990265,None,633.3701987999993,633.6701520999995,633.6701520999995,633.6701520999995,633.6701520999995,200,1,[2.0820572999982687],[2.082062899997254],619033,001,2023-11-08_19h30.02.320,Intentional binding,2023.1.3,60.10966407213285,
0.1,1000,exp,8,10,106,6,635.7526863999992,636.7523767999992,636.7523767999992,636.7523767999992,space,1.1958234000012453,None,638.0686179000004,638.3685326999985,638.3685326999985,638.3685326999985,638.3685326999985,300,1,[3.2148192999993626],[3.2148266000003787],619033,001,2023-11-08_19h30.02.320,Intentional binding,2023.1.3,60.10966407213285,
0.7,1000,exp,8,11,107,5,641.5841927000001,642.5838177999976,642.5838177999976,642.5838177999976,space,2.3995401000029233,None,645.6993430000002,645.9992109999985,645.9992109999985,645.9992109999985,645.9992109999985,250,1,[3.9136283000007097],[3.9136322000013024],619033,001,2023-11-08_19h30.02.320,Intentional binding,2023.1.3,60.10966407213285,
0.7,400,unexp,9,0,108,2,649.9144515000007,650.9142238999993,650.9142238999993,650.9142238999993,space,71.58272430000216,None,723.2231563999994,723.5230044999989,723.5230044999989,723.5230044999989,723.5230044999989,200,1,[3.1312003999992157],[3.131203499997355],619033,001,2023-11-08_19h30.02.320,Intentional binding,2023.1.3,60.10966407213285,
0.1,1000,exp,9,1,109,3,726.6552243999977,727.655072900001,727.655072900001,727.655072900001,space,0.37679299999945215,None,728.1549096999988,728.4546114999976,728.4546114999976,728.4546114999976,728.4546114999976,100,1,[2.6144151000007696],[2.614419599998655],619033,001,2023-11-08_19h30.02.320,Intentional binding,2023.1.3,60.10966407213285,
0.4,1000,exp,9,2,110,7,731.0703771999979,732.070083999999,732.070083999999,732.070083999999,space,0.6120359000015014,None,733.1031880999981,733.4030191999991,733.4030191999991,733.4030191999991,733.4030191999991,200,1,[1.914988500000618],[1.9149956000001112],619033,001,2023-11-08_19h30.02.320,Intentional binding,2023.1.3,60.10966407213285,
0.7,1000,exp,9,3,111,5,735.3190508000007,736.3187082999975,736.3187082999975,736.3187082999975,space,1.3417810999999347,None,738.3846733999999,738.6845248999998,738.6845248999998,738.6845248999998,738.6845248999998,400,1,[2.0661881000014546],[2.066192400001455],619033,001,2023-11-08_19h30.02.320,Intentional binding,2023.1.3,60.10966407213285,
0.7,1000,exp,9,4,112,11,740.750396200001,741.7502186999991,741.7502186999991,741.7502186999991,space,0.8180113000016718,None,743.2997471999988,743.5996205999982,743.5996205999982,743.5996205999982,743.5996205999982,400,1,[2.247428700000455],[2.247434599998087],619033,001,2023-11-08_19h30.02.320,Intentional binding,2023.1.3,60.10966407213285,
0.7,1000,exp,9,5,113,8,745.8488503000008,746.8484734999984,746.8484734999984,746.8484734999984,space,0.9671343000009074,None,748.5479195000007,748.8478251999986,748.8478251999986,748.8478251999986,748.8478251999986,500,1,[2.59744259999934],[2.597445899999002],619033,001,2023-11-08_19h30.02.320,Intentional binding,2023.1.3,60.10966407213285,
0.1,1000,exp,9,6,114,9,751.4468025999995,752.4466648999987,752.4466648999987,752.4466648999987,space,0.7460545000030834,None,753.3129415999974,753.6129958999991,753.6129958999991,753.6129958999991,753.6129958999991,200,1,[2.1160758000005444],[2.116083400000207],619033,001,2023-11-08_19h30.02.320,Intentional binding,2023.1.3,60.10966407213285,
0.4,400,unexp,9,7,115,1,755.7287173999975,756.7284426999977,756.7284426999977,756.7284426999977,space,0.42666530000133207,None,757.5781619000009,757.8779833999979,757.8779833999979,757.8779833999979,757.8779833999979,300,1,[1.8659702999975707],[1.8659759999973176],619033,001,2023-11-08_19h30.02.320,Intentional binding,2023.1.3,60.10966407213285,
0.4,1000,exp,9,8,116,4,759.7441012999989,760.7438074999991,760.7438074999991,760.7438074999991,space,0.5582997999990766,None,761.7267472999993,762.0266869999978,762.0266869999978,762.0266869999978,762.0266869999978,300,1,[1.8651638999981515],[1.8651682999989134],619033,001,2023-11-08_19h30.02.320,Intentional binding,2023.1.3,60.10966407213285,
0.1,1000,exp,9,9,117,6,763.8926465999975,764.8922865999994,764.8922865999994,764.8922865999994,space,0.637334800001554,None,765.6588171999974,765.9588483000007,765.9588483000007,765.9588483000007,765.9588483000007,200,1,[2.1154401000021608],[2.115446100000554],619033,001,2023-11-08_19h30.02.320,Intentional binding,2023.1.3,60.10966407213285,
0.1,400,unexp,9,10,118,0,768.0745228999986,769.0743046999996,769.0743046999996,769.0743046999996,space,0.6383390000046347,None,769.8406735999997,770.1405252999975,770.1405252999975,770.1405252999975,770.1405252999975,100,1,[1.7984699000007822],[1.7984751000003598],619033,001,2023-11-08_19h30.02.320,Intentional binding,2023.1.3,60.10966407213285,
0.4,1000,exp,9,11,119,10,771.939970200001,772.9397833000003,772.9397833000003,772.9397833000003,space,2.6474278000023332,None,776.0053009000003,776.3051430999985,776.3051430999985,776.3051430999985,776.3051430999985,100,1,[3.264568300000974],[3.264571600000636],619033,001,2023-11-08_19h30.02.320,Intentional binding,2023.1.3,60.10966407213285,
0.1,1000,exp,10,0,120,3,779.5705807999984,780.5703204999991,780.5703204999991,780.5703204999991,space,0.49393550000240793,None,781.1869350999987,781.4867874999982,781.4867874999982,781.4867874999982,781.4867874999982,50,1,[2.180890500003443],[2.1808937000023434],619033,001,2023-11-08_19h30.02.320,Intentional binding,2023.1.3,60.10966407213285,
0.1,1000,exp,10,1,121,6,783.6692354999977,784.669065099999,784.669065099999,784.669065099999,space,0.7672405000012077,None,785.5687866999979,785.8684625999995,785.8684625999995,785.8684625999995,785.8684625999995,50,1,[2.4161320999992313],[2.4161378999997396],619033,001,2023-11-08_19h30.02.320,Intentional binding,2023.1.3,60.10966407213285,
0.1,1000,exp,10,2,122,9,788.2844516999976,789.2841919999992,789.2841919999992,789.2841919999992,space,1.3340851000029943,None,790.7503929999984,791.0502873999976,791.0502873999976,791.0502873999976,791.0502873999976,50,1,[1.9486501999999746],[1.948656000000483],619033,001,2023-11-08_19h30.02.320,Intentional binding,2023.1.3,60.10966407213285,
0.7,400,unexp,10,3,123,2,792.9994679999982,793.9992013999981,793.9992013999981,793.9992013999981,space,0.04662390000157757,None,794.7656160999977,795.0654675999976,795.0654675999976,795.0654675999976,795.0654675999976,600,1,[3.01380269999936],[3.013807600000291],619033,001,2023-11-08_19h30.02.320,Intentional binding,2023.1.3,60.10966407213285,
0.4,1000,exp,10,4,124,7,798.080999400001,799.0807271999984,799.0807271999984,799.0807271999984,space,0.06810620000032941,None,799.5807443999984,799.8804873000008,799.8804873000008,799.8804873000008,799.8804873000008,300,1,[3.032064299997728],[3.032068199998321],619033,001,2023-11-08_19h30.02.320,Intentional binding,2023.1.3,60.10966407213285,
0.7,1000,exp,10,5,125,11,802.9127905999994,803.9126087999975,803.9126087999975,803.9126087999975,space,0.0827491000018199,None,804.7121889000009,805.0120439999992,805.0120439999992,805.0120439999992,805.0120439999992, 200,1,[3.0817280000010214],[3.0817322000002605],619033,001,2023-11-08_19h30.02.320,Intentional binding,2023.1.3,60.10966407213285,
0.7,1000,exp,10,6,126,8,808.0944588999992,809.0941797999985,809.0941797999985,809.0941797999985,space,0.9301249000018288,None,810.7435861999984,811.0434300999987,811.0434300999987,811.0434300999987,811.0434300999987,500,1,[2.165606899998238],[2.165610399999423],619033,001,2023-11-08_19h30.02.320,Intentional binding,2023.1.3,60.10966407213285,
0.1,400,unexp,10,7,127,0,813.209186,814.208956800001,814.208956800001,814.208956800001,space,1.0316495000006398,None,815.3587256999999,815.6584414999998,815.6584414999998,815.6584414999998,815.6584414999998,200,1,[2.231347699998878],[2.2313512999971863],619033,001,2023-11-08_19h30.02.320,Intentional binding,2023.1.3,60.10966407213285,
0.4,1000,exp,10,8,128,10,817.8910106999974,818.8908484999993,818.8908484999993,818.8908484999993,space,1.5261596000018471,None,820.8402127000008,821.1400238999995,821.1400238999995,821.1400238999995,821.1400238999995,300,1,[2.432127699998091],[2.432133199999953],619033,001,2023-11-08_19h30.02.320,Intentional binding,2023.1.3,60.10966407213285,
0.7,1000,exp,10,9,129,5,823.5724716000004,824.5722778999989,824.5722778999989,824.5722778999989,space,1.078804000004311,None,826.3716013999983,826.6715578000003,826.6715578000003,826.6715578000003,826.6715578000003,350,1,[3.9651704000025347],[3.965174000000843],619033,001,2023-11-08_19h30.02.320,Intentional binding,2023.1.3,60.10966407213285,
0.4,400,unexp,10,10,130,1,830.636727699999,831.6363425999989,831.6363425999989,831.6363425999989,space,0.356911000002583,None,832.4195835999999,832.7193576999998,832.7193576999998,832.7193576999998,832.7193576999998,"400
",1,[2.89791680000053],[2.8979214999999385],619033,001,2023-11-08_19h30.02.320,Intentional binding,2023.1.3,60.10966407213285,
,,,,,,,835.6184151999987,,,,,,,,,,,,,,,,,,,,,,
